Folder: MXene-EIS/data

Note: data/MXene_QAOA_Ising_coefficients.txt
Ising Hamiltonian coefficients for Eq. (10):  H_Ising(z)=Σ_i h_i z_i + Σ_{i<j} J_ij z_i z_j
Linear terms (h_i):
  h[0] (R_s_b0) = -1545.71
  h[1] (R_s_b1) = -3113.85
  h[2] (R_s_b2) = -6317.39
  h[3] (L_b0) = 4.7193
  h[4] (L_b1) = 7.92482
  h[5] (L_b2) = 9.79452
  h[6] (R_ct_b0) = -30063.8
  h[7] (R_ct_b1) = -61104.3
  h[8] (R_ct_b2) = -126116
  h[9] (Q_1_b0) = -706.865
  h[10] (Q_1_b1) = -1587.58
  h[11] (Q_1_b2) = -3870.56
  h[12] (α_1_b0) = -922.22
  h[13] (α_1_b1) = -1917.39
  h[14] (α_1_b2) = -4126.59
  h[15] (Q_2_b0) = 407433
  h[16] (Q_2_b1) = 721710
  h[17] (Q_2_b2) = 1.0708e+06
  h[18] (α_2_b0) = 111973
  h[19] (α_2_b1) = 215889
  h[20] (α_2_b2) = 399550
Couplings (J_ij):
  J[16,17] (Q_2_b1,Q_2_b2) = 372624
  J[15,17] (Q_2_b0,Q_2_b2) = 186312
  J[17,20] (Q_2_b2,α_2_b2) = 126255
  J[15,16] (Q_2_b0,Q_2_b1) = 93155.9
  J[17,19] (Q_2_b2,α_2_b1) = 63127.3
  J[16,20] (Q_2_b1,α_2_b2) = 63127.3
  J[19,20] (α_2_b1,α_2_b2) = 32226.8
  J[17,18] (Q_2_b2,α_2_b0) = 31563.7
  J[16,19] (Q_2_b1,α_2_b1) = 31563.7
  J[15,20] (Q_2_b0,α_2_b2) = 31563.7
  J[8,17] (R_ct_b2,Q_2_b2) = -25871.9
  J[8,20] (R_ct_b2,α_2_b2) = -19947.2
  J[18,20] (α_2_b0,α_2_b2) = 16113.4
  J[16,18] (Q_2_b1,α_2_b0) = 15781.8
  J[15,19] (Q_2_b0,α_2_b1) = 15781.8
  J[8,16] (R_ct_b2,Q_2_b1) = -12936
  J[7,17] (R_ct_b1,Q_2_b2) = -12936
  J[7,20] (R_ct_b1,α_2_b2) = -9973.62
  J[8,19] (R_ct_b2,α_2_b1) = -9973.62
  J[18,19] (α_2_b0,α_2_b1) = 8056.71
  J[15,18] (Q_2_b0,α_2_b0) = 7890.92
  J[7,16] (R_ct_b1,Q_2_b1) = -6467.98
  J[6,17] (R_ct_b0,Q_2_b2) = -6467.98
  J[8,15] (R_ct_b2,Q_2_b0) = -6467.98
  J[11,17] (Q_1_b2,Q_2_b2) = -5296.98
  J[6,20] (R_ct_b0,α_2_b2) = -4986.81
  J[7,19] (R_ct_b1,α_2_b1) = -4986.81
  J[8,18] (R_ct_b2,α_2_b0) = -4986.81
  J[7,8] (R_ct_b1,R_ct_b2) = 3907.12
  J[7,15] (R_ct_b1,Q_2_b0) = -3233.99
  J[6,16] (R_ct_b0,Q_2_b1) = -3233.99
  J[14,17] (α_1_b2,Q_2_b2) = -2875.24
  J[10,17] (Q_1_b1,Q_2_b2) = -2648.49
  J[11,16] (Q_1_b2,Q_2_b1) = -2648.49
  J[7,18] (R_ct_b1,α_2_b0) = -2493.4
  J[6,19] (R_ct_b0,α_2_b1) = -2493.4
  J[6,8] (R_ct_b0,R_ct_b2) = 1953.56
  J[6,15] (R_ct_b0,Q_2_b0) = -1617
  J[13,17] (α_1_b1,Q_2_b2) = -1437.62
  J[14,16] (α_1_b2,Q_2_b1) = -1437.62
  J[9,17] (Q_1_b0,Q_2_b2) = -1324.24
  J[11,15] (Q_1_b2,Q_2_b0) = -1324.24
  J[10,16] (Q_1_b1,Q_2_b1) = -1324.24
  J[6,18] (R_ct_b0,α_2_b0) = -1246.7
  J[2,20] (R_s_b2,α_2_b2) = -1179.23
  J[6,7] (R_ct_b0,R_ct_b1) = 976.781
  J[11,14] (Q_1_b2,α_1_b2) = 806.314
  J[11,20] (Q_1_b2,α_2_b2) = 774.911
  J[8,11] (R_ct_b2,Q_1_b2) = -726.852
  J[12,17] (α_1_b0,Q_2_b2) = -718.81
  J[13,16] (α_1_b1,Q_2_b1) = -718.81
  J[14,15] (α_1_b2,Q_2_b0) = -718.81
  J[10,11] (Q_1_b1,Q_1_b2) = 695.402
  J[2,17] (R_s_b2,Q_2_b2) = -685.423
  J[9,16] (Q_1_b0,Q_2_b1) = -662.122
  J[10,15] (Q_1_b1,Q_2_b0) = -662.122
  J[1,20] (R_s_b1,α_2_b2) = -589.614
  J[2,19] (R_s_b2,α_2_b1) = -589.614
  J[2,8] (R_s_b2,R_ct_b2) = 461.694
  J[14,20] (α_1_b2,α_2_b2) = -434.168
  J[10,14] (Q_1_b1,α_1_b2) = 403.157
  J[11,13] (Q_1_b2,α_1_b1) = 403.157


Note: README.md
# MXene-EIS
Reproducible repository for MXene electrochemical impedance spectroscopy (EIS) analysis for our Nano Energy submission: raw/processed data, equivalent-circuit models (CPE), fitting/solver scripts, Kramersâ€“Kronig checks, figures, and release-ready citation metadata (CITATION.cff, .zenodo.json). Includes example inputs and workflow notes.v1

File: MXene EIS.csv
Step number,Repeats,Step name,Elapsed Time  (s),DC Working Electrode (V),DC Current (A),Frequency (Hz),|Z| (Ohms),Phase (deg),Z' (Ohms),-Z" (Ohms),THD (%),Amplitude (A),Amplitude (V),No of Cycles,Duration of Each Frequency (s)
13,1,Potentiostatic EIS,2213.43,-0.000829589,-4.7461e-07,1000000,1.4326,54.894,0.823876,-1.172,2.09496,0.00426397,0.00610859,1430,0.00143
13,1,Potentiostatic EIS,2214.08,-0.00077503,-5.20998e-05,794328,1.22067,50.5961,0.774858,-0.943198,2.59118,0.00502087,0.00612882,1445,0.00181915
13,1,Potentiostatic EIS,2214.6,-0.00071504,-5.44102e-05,630957.25,1.06572,44.7435,0.756942,-0.750195,2.28031,0.0055822,0.00594906,1355,0.00214753
13,1,Potentiostatic EIS,2215.14,-0.000679662,-5.48947e-05,501187,0.953703,38.6195,0.745136,-0.59525,1.98721,0.00596335,0.00568729,1385,0.00276344
13,1,Potentiostatic EIS,2215.7,-0.000667665,-5.33205e-05,398107,0.87344,32.5429,0.7363,-0.46985,1.48988,0.00627827,0.00548372,1400,0.00351664
13,1,Potentiostatic EIS,2216.3,-0.000640587,-5.37012e-05,316228,0.819628,26.974,0.730463,-0.371772,1.51326,0.00655832,0.00537541,1370,0.00433232
13,1,Potentiostatic EIS,2216.94,-0.000646046,-5.28651e-05,251188.5,0.785301,21.7524,0.729383,-0.29103,1.46233,0.0068172,0.00535356,1340,0.00533464
13,1,Potentiostatic EIS,2217.64,-0.00064742,-5.16084e-05,199526,0.762145,17.2833,0.727732,-0.22643,1.34691,0.0070845,0.00539944,1355,0.00679109
13,1,Potentiostatic EIS,2218.4,-0.000642728,-5.24461e-05,158489,0.747546,13.5545,0.726725,-0.175202,1.36091,0.00738328,0.00551935,1360,0.00858103
13,1,Potentiostatic EIS,2219.24,-0.000635914,-5.27853e-05,125892,0.741035,10.2911,0.729114,-0.132385,1.12079,0.00776865,0.00575685,1370,0.0108823
13,1,Potentiostatic EIS,2220.18,-0.000634212,-1.87879e-05,99999.9,0.737499,7.74373,0.730773,-0.0993723,1.21348,0.00829585,0.00611821,1370,0.0137
13,1,Potentiostatic EIS,2221.26,-0.000635702,-1.84462e-05,79432.8,0.734636,5.53869,0.731207,-0.0709056,1.06188,0.00903596,0.00663816,1365,0.0171843
13,1,Potentiostatic EIS,2222.12,-0.000640609,-1.96318e-05,63095.7,0.734961,3.6722,0.733452,-0.0470728,0.93478,0.01007,0.00740106,1290,0.0204451
13,1,Potentiostatic EIS,2222.65,-0.000648691,-2.14442e-05,50118.7,0.737104,2.09542,0.736611,-0.0269513,0.821352,0.0115093,0.00848356,1025,0.0204515
13,1,Potentiostatic EIS,2223.18,-0.000636713,-2.22909e-05,39810.7,0.73987,0.740255,0.739808,-0.00955877,0.779016,0.0134597,0.00995844,815,0.0204719
13,1,Potentiostatic EIS,2223.72,-0.00058617,-2.00186e-05,31622.8,0.742232,-0.552953,0.742197,0.00716306,0.761363,0.0134422,0.00997726,645,0.0203967
13,1,Potentiostatic EIS,2224.25,-0.000533182,-1.81588e-05,25118.8,0.748653,-1.6668,0.748336,0.0217761,0.703907,0.0133311,0.0099804,510,0.0203035
13,1,Potentiostatic EIS,2224.77,-0.000480568,-1.66982e-05,19952.6,0.753787,-2.77125,0.752906,0.0364445,0.833904,0.012977,0.00978183,405,0.0202981
13,1,Potentiostatic EIS,2225.26,-0.000461745,-1.70348e-05,15848.9,0.759427,-3.86814,0.757697,0.0512314,0.682311,0.0131455,0.00998308,320,0.0201906
13,1,Potentiostatic EIS,2225.74,-0.000416831,-1.69091e-05,12589.2,0.766171,-5.08468,0.763156,0.0679042,0.787294,0.0130265,0.00998053,255,0.0202554
13,1,Potentiostatic EIS,2226.21,-0.00047602,-3.42866e-05,9999.98,0.773127,-6.21232,0.768587,0.0836625,0.67352,0.0129383,0.010003,307,0.0307001
13,1,Potentiostatic EIS,2226.45,-0.000466178,-5.14021e-05,7943.27,0.782188,-7.50961,0.775479,0.102226,0.256005,0.0128089,0.0100189,244,0.0307178
13,1,Potentiostatic EIS,2226.7,-0.000444829,-4.91375e-05,6309.57,0.792373,-9.10717,0.782384,0.125418,0.12057,0.0126646,0.0100351,193,0.0305885
13,1,Potentiostatic EIS,2226.94,-0.000435339,-4.84963e-05,5011.87,0.808307,-10.8667,0.793812,0.152386,0.132553,0.0123844,0.0100104,153,0.0305276
13,1,Potentiostatic EIS,2227.18,-0.000426626,-4.5556e-05,3981.07,0.825149,-12.7487,0.804807,0.18209,0.125158,0.0121259,0.0100056,122,0.0306451
13,1,Potentiostatic EIS,2227.33,-0.000424916,-4.69411e-05,3162.27,0.847259,-14.8975,0.81878,0.217822,0.107704,0.0111012,0.0094056,97,0.0306742
13,1,Potentiostatic EIS,2227.48,-0.000432979,-4.41086e-05,2511.88,0.872948,-17.3757,0.833113,0.260693,0.14077,0.0115214,0.0100576,77,0.0306543
13,1,Potentiostatic EIS,2227.63,-0.000426975,-4.63914e-05,1995.26,0.90701,-20.1464,0.851515,0.312392,0.125962,0.0112131,0.0101704,61,0.0305725
13,1,Potentiostatic EIS,2227.78,-0.000430316,-3.541e-05,1584.89,0.949298,-23.1811,0.872657,0.37368,0.140023,0.0106047,0.010067,48,0.030286
13,1,Potentiostatic EIS,2227.93,-0.000430267,-3.39288e-05,1258.92,1.00433,-26.5604,0.898333,0.449075,0.139191,0.00996424,0.0100073,38,0.0301845
13,1,Potentiostatic EIS,2228.08,-0.000421457,-4.54542e-05,999.999,1.07422,-30.0887,0.929469,0.53855,0.177836,0.009283,0.009972,30,0.03
13,1,Potentiostatic EIS,2228.23,-0.000429835,-4.98281e-05,794.328,1.1639,-33.7461,0.967789,0.646562,0.183085,0.00855287,0.00995467,24,0.0302142
13,1,Potentiostatic EIS,2228.38,-0.00042313,-4.66608e-05,630.956,1.27743,-37.4206,1.01453,0.776243,0.252433,0.00779407,0.00995636,19,0.030113
13,1,Potentiostatic EIS,2228.57,-0.000426424,-2.72194e-05,501.185,1.41995,-40.9974,1.07169,0.931523,0.302925,0.00704408,0.0100022,15,0.029929
13,1,Potentiostatic EIS,2228.72,-0.000426097,-2.39205e-05,398.107,1.59844,-44.3448,1.14312,1.11727,0.698743,0.0062298,0.00995798,12,0.0301427
13,1,Potentiostatic EIS,2228.87,-0.000429437,-3.75451e-05,316.227,1.82007,-47.3757,1.23253,1.33922,0.74124,0.00547667,0.0099679,9,0.0284606
13,1,Potentiostatic EIS,2229.02,-0.000419401,-1.98919e-05,251.188,2.08817,-50.0537,1.34075,1.60089,0.511196,0.00477734,0.0099759,8,0.0318487
13,1,Potentiostatic EIS,2229.19,-0.000428267,-2.88515e-05,199.526,2.41612,-52.287,1.47796,1.91135,0.318498,0.00412905,0.00997626,8,0.0400951
13,1,Potentiostatic EIS,2229.46,-0.000425065,6.79024e-06,158.489,2.80984,-54.0924,1.64791,2.27587,0.233266,0.00353483,0.00993231,8,0.0504767
13,1,Potentiostatic EIS,2229.67,-0.000429933,2.30923e-06,125.892,3.27549,-55.5281,1.85393,2.70032,0.254102,0.00305157,0.00999539,8,0.0635464
13,1,Potentiostatic EIS,2229.91,-0.000433591,1.80119e-06,99.9997,3.82465,-56.5871,2.10611,3.19253,0.241295,0.00261344,0.00999549,8,0.0800003
13,1,Potentiostatic EIS,2230.18,-0.00043592,2.15911e-06,79.4325,4.46716,-57.3623,2.40925,3.76178,0.268987,0.00223865,0.0100004,8,0.100714
13,1,Potentiostatic EIS,2230.52,-0.000431712,-2.13396e-06,63.0956,5.21236,-57.9718,2.7643,4.41898,0.249197,0.00191775,0.00999601,8,0.126792
13,1,Potentiostatic EIS,2230.91,-0.000431608,2.76871e-06,50.1186,6.08029,-58.339,3.1915,5.17536,0.256452,0.00164571,0.0100064,8,0.159621
13,1,Potentiostatic EIS,2231.39,-0.000433966,2.50215e-06,39.8106,7.07994,-58.7331,3.67467,6.05164,0.267471,0.00141306,0.0100044,8,0.200952
13,1,Potentiostatic EIS,2231.8,-0.000441508,-6.34892e-06,31.6227,8.24128,-59.2517,4.21349,7.08273,0.721221,0.00122134,0.0100654,2,0.0632458
13,1,Potentiostatic EIS,2232.07,-0.000464164,-2.94012e-06,25.1188,9.59495,-59.561,4.861,8.27247,0.311872,0.00104817,0.0100571,2,0.0796217
13,1,Potentiostatic EIS,2232.41,-0.000431386,5.16481e-06,19.9525,11.1747,-59.9858,5.58975,9.67618,0.284444,0.000899892,0.010056,2,0.100238
13,1,Potentiostatic EIS,2232.95,-0.000408764,3.82162e-06,15.8489,13.0472,-60.5175,6.42126,11.3577,0.279095,0.000767979,0.01002,2,0.126192
13,1,Potentiostatic EIS,2233.53,-0.000413588,4.06723e-06,12.5892,15.2516,-61.0505,7.38237,13.3459,0.270532,0.000657392,0.0100263,2,0.158866
13,1,Potentiostatic EIS,2234.46,-0.00042653,3.49756e-06,9.99996,17.8718,-61.4587,8.53899,15.6999,0.265539,0.000560163,0.0100111,2,0.200001
13,1,Potentiostatic EIS,2235.27,-0.000430395,2.84097e-06,7.94325,20.9512,-61.8525,9.88361,18.4735,0.273659,0.000478027,0.0100153,2,0.251786
13,1,Potentiostatic EIS,2236.21,-0.000419998,3.74537e-06,6.30955,24.5521,-62.1767,11.4596,21.7136,0.247911,0.000407372,0.0100018,2,0.31698
13,1,Potentiostatic EIS,2237.45,-0.000426697,3.275e-06,5.01185,28.736,-62.5377,13.252,25.4978,0.244729,0.000348452,0.0100131,2,0.399054
13,1,Potentiostatic EIS,2238.94,-0.000424038,3.74836e-06,3.98106,33.6096,-63.0034,15.2567,29.9473,0.248915,0.000297812,0.0100094,2,0.502378
13,1,Potentiostatic EIS,2240.8,-0.000416213,3.93804e-06,3.16227,39.2494,-63.7308,17.3714,35.1959,0.254642,0.000254896,0.0100045,2,0.632458
13,1,Potentiostatic EIS,2243.25,-0.00042156,3.7785e-06,2.51188,45.9886,-64.7787,19.5965,41.6045,0.245825,0.000217631,0.0100085,2,0.796217
13,1,Potentiostatic EIS,2246.29,-0.000419297,4.18827e-06,1.99526,54.0909,-66.1479,21.8731,49.4711,0.251148,0.000185065,0.0100103,2,1.00238
13,1,Potentiostatic EIS,2250.1,-0.000420902,4.29612e-06,1.58489,64.0957,-67.7579,24.2616,59.3265,0.271418,0.000156069,0.0100033,2,1.26192
13,1,Potentiostatic EIS,2256.52,-0.000418808,4.43469e-06,1.25892,76.6681,-69.4631,26.896,71.7956,0.274948,0.000130523,0.0100069,2,1.58866
13,1,Potentiostatic EIS,2262.26,-0.000424412,4.68104e-06,0.999995,92.3665,-71.1947,29.7747,87.4359,0.295743,0.000108402,0.0100127,2,2.00001
13,1,Potentiostatic EIS,2269.47,-0.000420408,4.94916e-06,0.794324,112.183,-72.821,33.134,107.178,0.302671,8.91893e-05,0.0100055,2,2.51786
13,1,Potentiostatic EIS,2278.53,-0.000427755,5.27077e-06,0.630955,137.21,-74.2989,37.1317,132.091,0.344024,7.29408e-05,0.0100082,2,3.1698
13,1,Potentiostatic EIS,2297.79,-0.000421069,5.74503e-06,0.501186,169.64,-75.5344,42.3759,164.262,0.365689,5.89473e-05,0.00999979,2,3.99054
13,1,Potentiostatic EIS,2327.97,-0.000423299,6.7526e-06,0.398106,211.613,-76.5522,49.2128,205.811,0.402138,4.73015e-05,0.0100096,2,5.02379
13,1,Potentiostatic EIS,2374.09,-0.000426993,7.11309e-06,0.316226,265.389,-77.373,58.0146,258.97,0.410007,3.76994e-05,0.010005,2,6.32458
13,1,Potentiostatic EIS,2390.14,-0.000427227,7.57789e-06,0.3,280.117,-77.4647,60.7969,273.44,0.46368,3.57016e-05,0.0100006,2,6.66667

File: MXene_EIS_fit_results_linearLS.csv
Frequency_Hz,Zre_data_Ohm,Zim_data_Ohm,Zre_fit_Ohm,Zim_fit_Ohm,Re_residual_Ohm,Im_residual_Ohm
1000000.0,0.823876,1.172,0.872982,1.17955,0.0491062,0.00755335
891251,0.805428,1.04754,0.873029,1.05093,0.0676006,0.00339027
794328,0.774858,0.943198,0.873079,0.936269,0.0982212,-0.00692887
707946,0.763868,0.841394,0.873135,0.834037,0.109267,-0.00735687
630957.25,0.756942,0.750195,0.873196,0.742882,0.116254,-0.00731346
562341.25,0.750765,0.669071,0.873264,0.661594,0.122499,-0.00747657
501187,0.745136,0.59525,0.873338,0.589097,0.128202,-0.00615255
446684,0.73857,0.528102,0.873419,0.524429,0.134849,-0.00367237
398107,0.7363,0.46985,0.873508,0.466734,0.137208,-0.00311635
354813,0.73424,0.42159,0.873606,0.415246,0.139366,-0.0063438
316228,0.730463,0.371772,0.873714,0.369285,0.143251,-0.00248664
281838,0.730378,0.32884,0.873832,0.328242,0.143454,-0.000597836
251188.5,0.729383,0.29103,0.873962,0.291574,0.144579,0.000543644
223872,0.727965,0.255971,0.874105,0.258797,0.14614,0.00282605
199526,0.727732,0.22643,0.874262,0.229478,0.146529,0.0030473
177828,0.728121,0.199154,0.874434,0.203229,0.146313,0.00407502
158489,0.726725,0.175202,0.874624,0.179706,0.147898,0.00450388
141254,0.727734,0.152724,0.874832,0.1586,0.147098,0.00587515
125892,0.729114,0.132385,0.87506,0.139632,0.145947,0.00724693
112202,0.728364,0.114334,0.875312,0.122555,0.146948,0.00822096
99999.9,0.730773,0.0993723,0.875588,0.107146,0.144815,0.00777373
89125.1,0.73106,0.0832398,0.875891,0.0932049,0.144832,0.00996508
79432.8,0.731207,0.0709056,0.876225,0.0805508,0.145018,0.00964518
70794.5,0.733427,0.0584977,0.876591,0.0690208,0.143165,0.0105231
63095.7,0.733452,0.0470728,0.876994,0.0584678,0.143543,0.011395
56234.1,0.735303,0.0360232,0.877437,0.0487573,0.142134,0.0127342
50118.7,0.736611,0.0269513,0.877924,0.0397673,0.141313,0.012816
44668.3,0.737287,0.0166042,0.878459,0.0313858,0.141172,0.0147816
39810.7,0.739808,0.00955877,0.879047,0.0235095,0.139239,0.0139507
35481.3,0.742133,0.00155738,0.879693,0.0160427,0.137561,0.0144853
31622.8,0.742197,-0.00716306,0.880404,0.00889596,0.138207,0.016059
28183.8,0.745856,-0.0151656,0.881186,0.00198494,0.13533,0.0171506
25118.8,0.748336,-0.0217761,0.882045,-0.00477019,0.133709,0.0170059
22387.2,0.749824,-0.0292449,0.88299,-0.0114461,0.133166,0.0177987
19952.6,0.752906,-0.0364445,0.884029,-0.0181175,0.131124,0.018327
17782.8,0.754427,-0.043474,0.885172,-0.0248574,0.130745,0.0186166
15848.9,0.757697,-0.0512314,0.88643,-0.0317379,0.128733,0.0194935
14125.4,0.759305,-0.0598153,0.887813,-0.0388316,0.128508,0.0209837
12589.2,0.763156,-0.0679042,0.889334,-0.0462121,0.126179,0.0216921
11220.2,0.766435,-0.0776976,0.891009,-0.0539543,0.124574,0.0237433
9999.98,0.768587,-0.0836625,0.892851,-0.0621361,0.124264,0.0215264
8912.5,0.771793,-0.0929711,0.894879,-0.0708383,0.123086,0.0221328
7943.27,0.775479,-0.102226,0.897111,-0.0801461,0.121632,0.0220799
7079.45,0.779155,-0.113331,0.899568,-0.0901496,0.120413,0.0231815
6309.57,0.782384,-0.125418,0.902274,-0.100945,0.119889,0.0244734
5623.41,0.788755,-0.137885,0.905254,-0.112634,0.116499,0.0252504
5011.87,0.793812,-0.152386,0.908536,-0.125328,0.114724,0.0270576
4466.83,0.799507,-0.166691,0.912152,-0.139146,0.112645,0.0275445
3981.07,0.804807,-0.18209,0.916137,-0.154218,0.111331,0.0278726
3548.13,0.811272,-0.197842,0.92053,-0.170682,0.109257,0.0271596
3162.27,0.81878,-0.217822,0.925373,-0.188693,0.106593,0.0291294
2818.38,0.825359,-0.23809,0.930714,-0.208415,0.105355,0.0296751
2511.88,0.833113,-0.260693,0.936606,-0.230031,0.103493,0.0306619
2238.72,0.84173,-0.285473,0.943109,-0.253739,0.101378,0.031734
1995.26,0.851515,-0.312392,0.950287,-0.279756,0.0987715,0.0326364
1778.28,0.861609,-0.341869,0.958214,-0.308318,0.0966047,0.0335509
1584.89,0.872657,-0.37368,0.966972,-0.339686,0.0943151,0.0339935
1412.53,0.885356,-0.409687,0.976652,-0.374144,0.0912957,0.0355427
1258.92,0.898333,-0.449075,0.987355,-0.412001,0.0890215,0.0370736
1122.02,0.913127,-0.491773,0.999196,-0.453601,0.0860689,0.0381722
999.999,0.929469,-0.53855,1.0123,-0.499314,0.0828322,0.0392368
891.25,0.947929,-0.590178,1.02682,-0.549549,0.0788868,0.0406298
794.328,0.967789,-0.646562,1.0429,-0.604751,0.0751099,0.0418115
707.945,0.989557,-0.708519,1.06073,-0.665409,0.0711753,0.0431107
630.956,1.01453,-0.776243,1.08052,-0.732054,0.06599,0.0441891
562.34,1.04145,-0.850204,1.10248,-0.80527,0.0610292,0.0449348
501.185,1.07169,-0.931523,1.12689,-0.885687,0.0551951,0.0458358
446.683,1.10558,-1.02009,1.15402,-0.973996,0.0484414,0.0460898
398.107,1.14312,-1.11727,1.18421,-1.07095,0.041087,0.0463215
354.813,1.18665,-1.2218,1.21782,-1.17736,0.0311749,0.044438
316.227,1.23253,-1.33922,1.25528,-1.29412,0.022752,0.045103
281.838,1.28275,-1.46385,1.29705,-1.42218,0.0142972,0.0416768
251.188,1.34075,-1.60089,1.34367,-1.56257,0.00292312,0.0383181
223.872,1.40476,-1.75019,1.39575,-1.71641,-0.00901181,0.0337783
199.526,1.47796,-1.91135,1.45395,-1.8849,-0.0240008,0.0264553
177.828,1.55683,-2.08695,1.51906,-2.0693,-0.0377678,0.0176514
158.489,1.64791,-2.27587,1.59194,-2.271,-0.0559782,0.00486975
141.253,1.74585,-2.47937,1.67355,-2.49144,-0.0722996,-0.0120693
125.892,1.85393,-2.70032,1.76499,-2.73214,-0.0889408,-0.0318163
112.201,1.97354,-2.93895,1.86749,-2.99472,-0.106044,-0.05577
99.9997,2.10611,-3.19253,1.9824,-3.28085,-0.123712,-0.0883237
89.1248,2.25136,-3.46752,2.11123,-3.59227,-0.140126,-0.124751
79.4325,2.40925,-3.76178,2.25564,-3.93077,-0.153612,-0.168987
70.7943,2.58577,-4.07193,2.41745,-4.29815,-0.168327,-0.226215
63.0956,2.7643,-4.41898,2.59861,-4.69622,-0.165691,-0.277246
56.2341,2.97169,-4.78086,2.80125,-5.12682,-0.170442,-0.345956
50.1186,3.1915,-5.17536,3.02758,-5.5917,-0.163921,-0.416345
44.6682,3.42484,-5.59507,3.27991,-6.09259,-0.14493,-0.497523
39.8106,3.67467,-6.05164,3.56059,-6.63112,-0.114078,-0.57949
35.4812,3.94854,-6.537,3.87194,-7.20886,-0.0765978,-0.671866
31.6227,4.21349,-7.08273,4.21618,-7.82728,0.00268798,-0.744546
28.1838,4.54016,-7.62753,4.59531,-8.4878,0.0551484,-0.860273
25.1188,4.861,-8.27247,5.01103,-9.19188,0.150032,-0.919411
22.3871,5.21046,-8.93873,5.46461,-9.94103,0.254146,-1.0023
19.9525,5.58975,-9.67618,5.95674,-10.737,0.366988,-1.06082
17.7828,5.99169,-10.4777,6.48746,-11.582,0.495773,-1.10427
15.8489,6.42126,-11.3577,7.05613,-12.4787,0.634863,-1.12106
14.1253,6.89507,-12.3031,7.66128,-13.431,0.766201,-1.12796
12.5892,7.38237,-13.3459,8.30067,-14.4437,0.918302,-1.09789
11.2201,7.93781,-14.4789,8.97149,-15.5234,1.03368,-1.04449
9.99996,8.53899,-15.6999,9.67032,-16.6782,1.13133,-0.978287
8.91248,9.17914,-17.0258,10.3935,-17.9186,1.21436,-0.892713
7.94325,9.88361,-18.4735,11.1373,-19.2573,1.25371,-0.783786
7.07944,10.6461,-20.0304,11.8983,-20.7095,1.25225,-0.679066
6.30955,11.4596,-21.7136,12.6736,-22.2932,1.21398,-0.579574
5.62339,12.3287,-23.5193,13.461,-24.0289,1.13224,-0.50966
5.01185,13.252,-25.4978,14.2594,-25.9399,1.00737,-0.442098
4.46682,14.2397,-27.6219,15.0689,-28.0522,0.829251,-0.430321
3.98106,15.2567,-29.9473,15.891,-30.3944,0.634334,-0.447132
3.54812,16.2887,-32.4596,16.7282,-32.9982,0.439516,-0.5386
3.16227,17.3714,-35.1959,17.5845,-35.8977,0.213136,-0.701832
2.81837,18.4807,-38.2193,18.4651,-39.1306,-0.0155449,-0.911272
2.51188,19.5965,-41.6045,19.3765,-42.7374,-0.219948,-1.13291
2.23872,20.7137,-45.3202,20.3262,-46.7625,-0.387483,-1.44231
1.99526,21.8731,-49.4711,21.3229,-51.2544,-0.550156,-1.78333
1.77827,23.0801,-54.1261,22.3762,-56.266,-0.703941,-2.13989
1.58489,24.2616,-59.3265,23.4968,-61.8553,-0.764771,-2.52884
1.41253,25.5519,-65.1743,24.6964,-68.0858,-0.855491,-2.91151
1.25892,26.896,-71.7956,25.9879,-75.0281,-0.908094,-3.23254
1.12202,28.2648,-79.1527,27.3852,-82.7592,-0.879593,-3.60651
0.999995,29.7747,-87.4359,28.9035,-91.365,-0.871206,-3.92901
0.891248,31.3706,-96.7505,30.5593,-100.939,-0.811351,-4.18899
0.794324,33.134,-107.178,32.3707,-111.588,-0.763262,-4.41028
0.707944,35.0984,-118.919,34.3575,-123.426,-0.74094,-4.50681
0.630955,37.1317,-132.091,36.5413,-136.582,-0.590363,-4.4917
0.562339,39.6031,-146.849,38.9458,-151.199,-0.657309,-4.35029
0.501186,42.3759,-164.262,41.5971,-167.435,-0.778788,-3.17328
0.446681,45.6664,-184.333,44.5239,-185.466,-1.1425,-1.13298
0.398106,49.2128,-205.811,47.7578,-205.484,-1.45505,0.327444
0.354812,53.2314,-230.388,51.3338,-227.707,-1.89755,2.68097
0.316226,58.0146,-258.97,55.2905,-252.374,-2.72413,6.59567
0.3,60.7969,-273.44,57.2392,-264.547,-3.55765,8.89327